       224
    320.00   .036018   .004981
    330.00   .037143   .004174
    340.00   .038406   .004246
    350.00   .040221   .003378
    360.00   .042619   .001274
    370.00   .045670   .000823
    380.00   .049626   .000701
    390.00   .052475   .000629
    400.00   .056080   .002284
    410.00   .059371   .001701
    420.00   .063308   .001337
    430.00   .066546   .001510
    440.00   .070573   .001275
    450.00   .072602   .001296
    460.00   .074746   .001156
    470.00   .077125   .001035
    480.00   .080107   .001000
    490.00   .082570   .000994
    500.00   .085930   .001023
    510.00   .092175   .000864
    520.00   .097710   .000898
    530.00   .102347   .000871
    540.00   .108072   .000913
    550.00   .112103   .000740
    560.00   .115592   .000803
    570.00   .117905   .000676
    580.00   .119906   .000769
    590.00   .120694   .000783
    600.00   .122019   .000759
    610.00   .122766   .000809
    620.00   .123765   .000896
    630.00   .123907   .000940
    640.00   .125311   .001030
    650.00   .126516   .001060
    660.00   .127316   .001119
    670.00   .128553   .001084
    680.00   .129175   .001103
    690.00   .129085   .001113
    700.00   .129438   .001205
    710.00   .128952   .001227
    720.00   .128386   .001335
    730.00   .127409   .001477
    740.00   .126111   .001634
    750.00   .125085   .001776
    760.00   .123276   .001955
    770.00   .121498   .002283
    780.00   .119231   .002593
    790.00   .116931   .002809
    800.00   .114840   .003096
    810.00   .111609   .003428
    820.00   .109805   .003833
    830.00   .108035   .005702
    840.00   .105782   .005308
    850.00   .104348   .005175
    860.00   .102970   .004811
    870.00   .101505   .004925
    880.00   .100102   .003983
    890.00   .099167   .003419
    900.00   .097579   .003042
    910.00   .096387   .002947
    920.00   .095073   .002530
    930.00   .093322   .002410
    940.00   .092428   .002248
    950.00   .090862   .001885
    960.00   .089092   .001615
    970.00   .087523   .001457
    980.00   .085473   .001366
    990.00   .083922   .001268
   1000.00   .082392   .001051
   1010.00   .080883   .000934
   1020.00   .079524   .000890
   1030.00   .078869   .001416
   1040.00   .077973   .001223
   1050.00   .077380   .001208
   1060.00   .077708   .001147
   1070.00   .077784   .001102
   1080.00   .077997   .001008
   1090.00   .078382   .000995
   1100.00   .078752   .000894
   1110.00   .079700   .000877
   1120.00   .081098   .000789
   1130.00   .082059   .000801
   1140.00   .083170   .000841
   1150.00   .084109   .000799
   1160.00   .085095   .000741
   1170.00   .085950   .000732
   1180.00   .087199   .000836
   1190.00   .087783   .000764
   1200.00   .088109   .000656
   1210.00   .088592   .000700
   1220.00   .089175   .000663
   1230.00   .089683   .000647
   1240.00   .090231   .000633
   1250.00   .090691   .000572
   1260.00   .091240   .000635
   1270.00   .092004   .000671
   1280.00   .093043   .000585
   1290.00   .093845   .000590
   1300.00   .094787   .000699
   1310.00   .095859   .000711
   1320.00   .097119   .000660
   1330.00   .098340   .000669
   1340.00   .099323   .000690
   1350.00   .100861   .000740
   1360.00   .102268   .000668
   1370.00   .103874   .000708
   1380.00   .105412   .000734
   1390.00   .107257   .000777
   1400.00   .108963   .000780
   1410.00   .110897   .000930
   1420.00   .111982   .000986
   1430.00   .114029   .000906
   1440.00   .116183   .000979
   1450.00   .117948   .001031
   1460.00   .119855   .000932
   1470.00   .121934   .000931
   1480.00   .123584   .000808
   1490.00   .125182   .000861
   1500.00   .127183   .000933
   1510.00   .129014   .000819
   1520.00   .130556   .001106
   1530.00   .132235   .001175
   1540.00   .133767   .000996
   1550.00   .135230   .000909
   1560.00   .136569   .001138
   1570.00   .137863   .001171
   1580.00   .138671   .000907
   1590.00   .139829   .000974
   1600.00   .140641   .001014
   1610.00   .141438   .001012
   1620.00   .142495   .001096
   1630.00   .143270   .001138
   1640.00   .144096   .001175
   1650.00   .144775   .001188
   1660.00   .145496   .001197
   1670.00   .146171   .001167
   1680.00   .146785   .001053
   1690.00   .147239   .001088
   1700.00   .147008   .001181
   1710.00   .147305   .001201
   1720.00   .147991   .001181
   1730.00   .147963   .001149
   1740.00   .148001   .001279
   1750.00   .148148   .001393
   1760.00   .148416   .001410
   1770.00   .148447   .001410
   1780.00   .148361   .001526
   1790.00   .148378   .001142
   1800.00   .148346   .001114
   1810.00   .148583   .000700
   1820.00   .148709   .000792
   1830.00   .148302   .000847
   1840.00   .148268   .000983
   1850.00   .147573   .000825
   1860.00   .147509   .000850
   1870.00   .146535   .001215
   1880.00   .146389   .001288
   1890.00   .146346   .001067
   1900.00   .146115   .001196
   1910.00   .146065   .000926
   1920.00   .145812   .000902
   1930.00   .145945   .000900
   1940.00   .146000   .000848
   1950.00   .145552   .001052
   1960.00   .145583   .001042
   1970.00   .145473   .000970
   1980.00   .145638   .000825
   1990.00   .145658   .001165
   2000.00   .145710   .001108
   2010.00   .145607   .001341
   2020.00   .145687   .001384
   2030.00   .145606   .001062
   2040.00   .145749   .001086
   2050.00   .145407   .001275
   2060.00   .145208   .001256
   2070.00   .145488   .000979
   2080.00   .145550   .000952
   2090.00   .145377   .001156
   2100.00   .145401   .001115
   2110.00   .145706   .001331
   2120.00   .145801   .001379
   2130.00   .145786   .001072
   2140.00   .145959   .001104
   2150.00   .145895   .000974
   2160.00   .145949   .000970
   2170.00   .145887   .000940
   2180.00   .145950   .000924
   2190.00   .146303   .000999
   2200.00   .146722   .001148
   2210.00   .146760   .001446
   2220.00   .146811   .001315
   2230.00   .146468   .001411
   2240.00   .146462   .001365
   2250.00   .146642   .001176
   2260.00   .146817   .001215
   2270.00   .147452   .001188
   2280.00   .147622   .001301
   2290.00   .147530   .001274
   2300.00   .147079   .001432
   2310.00   .147746   .001067
   2320.00   .147763   .001031
   2330.00   .148260   .001073
   2340.00   .148677   .001000
   2350.00   .148936   .001155
   2360.00   .149127   .001030
   2370.00   .148989   .001053
   2380.00   .148966   .001058
   2390.00   .149337   .000823
   2400.00   .149623   .000945
   2410.00   .149585   .001094
   2420.00   .149813   .001283
   2430.00   .149926   .001253
   2440.00   .150175   .001268
   2450.00   .150041   .001105
   2460.00   .150310   .001176
   2470.00   .150434   .001197
   2480.00   .151010   .001280
   2490.00   .151021   .001250
   2500.00   .151069   .001256
   2510.00   .151579   .001401
   2520.00   .151797   .001421
   2530.00   .151479   .000994
   2540.00   .152136   .000906
   2550.00   .151796   .001159



 C1TB193.ASC             

 TB-MDD-193
 MIL 11207 (R6) <125 um
 No depolarizer was used over the wavelength ranges of 320-400 & 1800-2550 nm
 Albedo adjusted to the visible range
 
 Source Ang:  30.00, Detect Ang:    .00, Volt:  .777
 Date: 11-DEC-19, Time: 14:27:14
 
 RATIOS ADJUSTED USING RELAB SPECTRALON CALIBRATION TABLE
