   224
    320.0   0.13193   0.00135
    330.0   0.14060   0.00120
    340.0   0.14883   0.00144
    350.0   0.15547   0.00109
    360.0   0.16111   0.00106
    370.0   0.16566   0.00106
    380.0   0.16841   0.00124
    390.0   0.17171   0.00129
    400.0   0.17476   0.00184
    410.0   0.17666   0.00144
    420.0   0.17905   0.00133
    430.0   0.18101   0.00132
    440.0   0.18298   0.00126
    450.0   0.18478   0.00129
    460.0   0.18666   0.00142
    470.0   0.18819   0.00139
    480.0   0.18913   0.00138
    490.0   0.19033   0.00139
    500.0   0.19105   0.00127
    510.0   0.19259   0.00129
    520.0   0.19347   0.00117
    530.0   0.19514   0.00129
    540.0   0.19578   0.00124
    550.0   0.19683   0.00130
    560.0   0.19659   0.00133
    570.0   0.19729   0.00130
    580.0   0.19712   0.00135
    590.0   0.19754   0.00135
    600.0   0.19733   0.00135
    610.0   0.19798   0.00134
    620.0   0.19875   0.00142
    630.0   0.19962   0.00136
    640.0   0.19971   0.00130
    650.0   0.20044   0.00137
    660.0   0.20028   0.00127
    670.0   0.20065   0.00133
    680.0   0.20099   0.00121
    690.0   0.20093   0.00122
    700.0   0.20134   0.00123
    710.0   0.20149   0.00124
    720.0   0.20191   0.00119
    730.0   0.20160   0.00120
    740.0   0.20168   0.00123
    750.0   0.20122   0.00119
    760.0   0.19991   0.00112
    770.0   0.19967   0.00116
    780.0   0.19825   0.00121
    790.0   0.19719   0.00131
    800.0   0.19580   0.00117
    810.0   0.19403   0.00120
    820.0   0.19262   0.00117
    830.0   0.19050   0.00114
    840.0   0.18817   0.00131
    850.0   0.18587   0.00117
    860.0   0.18413   0.00114
    870.0   0.18256   0.00513
    880.0   0.18123   0.00166
    890.0   0.17943   0.00488
    900.0   0.17873   0.00547
    910.0   0.17794   0.00545
    920.0   0.17764   0.00212
    930.0   0.17723   0.00515
    940.0   0.17731   0.00345
    950.0   0.17871   0.00271
    960.0   0.18026   0.00323
    970.0   0.18213   0.00256
    980.0   0.18334   0.00272
    990.0   0.18416   0.00153
   1000.0   0.18447   0.00126
   1010.0   0.18529   0.00194
   1020.0   0.18611   0.00066
   1030.0   0.18639   0.00165
   1040.0   0.18700   0.00298
   1050.0   0.18731   0.00058
   1060.0   0.18826   0.00176
   1070.0   0.18822   0.00373
   1080.0   0.18902   0.00427
   1090.0   0.18951   0.00130
   1100.0   0.19033   0.00106
   1110.0   0.19067   0.00207
   1120.0   0.19097   0.00139
   1130.0   0.19266   0.00350
   1140.0   0.19342   0.00205
   1150.0   0.19480   0.00262
   1160.0   0.19482   0.00440
   1170.0   0.19596   0.00146
   1180.0   0.19633   0.00131
   1190.0   0.19667   0.00141
   1200.0   0.19687   0.00220
   1210.0   0.19734   0.00349
   1220.0   0.19712   0.00223
   1230.0   0.19693   0.00190
   1240.0   0.19748   0.00127
   1250.0   0.19849   0.00045
   1260.0   0.19869   0.00046
   1270.0   0.19913   0.00165
   1280.0   0.19956   0.00016
   1290.0   0.20010   0.00321
   1300.0   0.20014   0.00116
   1310.0   0.20058   0.00045
   1320.0   0.20114   0.00001
   1330.0   0.20155   0.00119
   1340.0   0.20220   0.00404
   1350.0   0.20226   0.00303
   1360.0   0.20243   0.00107
   1370.0   0.20265   0.00003
   1380.0   0.20259   0.00122
   1390.0   0.20284   0.00137
   1400.0   0.20340   0.00052
   1410.0   0.20407   0.00150
   1420.0   0.20482   0.00112
   1430.0   0.20511   0.00069
   1440.0   0.20542   0.00037
   1450.0   0.20547   0.00293
   1460.0   0.20520   0.00048
   1470.0   0.20502   0.00285
   1480.0   0.20531   0.00022
   1490.0   0.20544   0.00166
   1500.0   0.20518   0.00178
   1510.0   0.20557   0.00007
   1520.0   0.20487   0.00007
   1530.0   0.20485   0.00446
   1540.0   0.20456   0.00033
   1550.0   0.20401   0.00101
   1560.0   0.20358   0.00025
   1570.0   0.20396   0.00049
   1580.0   0.20319   0.00252
   1590.0   0.20270   0.00198
   1600.0   0.20268   0.00176
   1610.0   0.20161   0.00063
   1620.0   0.20096   0.00169
   1630.0   0.20069   0.00194
   1640.0   0.20027   0.00165
   1650.0   0.19991   0.00053
   1660.0   0.20079   0.00324
   1670.0   0.20080   0.00164
   1680.0   0.20049   0.00069
   1690.0   0.20023   0.00178
   1700.0   0.19968   0.00065
   1710.0   0.19886   0.00162
   1720.0   0.19814   0.00037
   1730.0   0.19772   0.00285
   1740.0   0.19687   0.00060
   1750.0   0.19645   0.00063
   1760.0   0.19561   0.00227
   1770.0   0.19546   0.00090
   1780.0   0.19495   0.00054
   1790.0   0.19465   0.00106
   1800.0   0.19433   0.00127
   1810.0   0.19424   0.00161
   1820.0   0.19385   0.00156
   1830.0   0.19364   0.00168
   1840.0   0.19329   0.00242
   1850.0   0.19258   0.00091
   1860.0   0.19276   0.00243
   1870.0   0.19229   0.00084
   1880.0   0.19191   0.00158
   1890.0   0.19175   0.00041
   1900.0   0.19219   0.00230
   1910.0   0.19159   0.00145
   1920.0   0.19142   0.00070
   1930.0   0.19127   0.00152
   1940.0   0.19134   0.00066
   1950.0   0.19165   0.00001
   1960.0   0.19224   0.00187
   1970.0   0.19233   0.00077
   1980.0   0.19257   0.00105
   1990.0   0.19280   0.00126
   2000.0   0.19207   0.00072
   2010.0   0.19192   0.00299
   2020.0   0.19206   0.00063
   2030.0   0.19190   0.00226
   2040.0   0.19199   0.00468
   2050.0   0.19261   0.00137
   2060.0   0.19238   0.00124
   2070.0   0.19270   0.00150
   2080.0   0.19303   0.00220
   2090.0   0.19318   0.00115
   2100.0   0.19305   0.00492
   2110.0   0.19360   0.00149
   2120.0   0.19347   0.00425
   2130.0   0.19366   0.00651
   2140.0   0.19369   0.00051
   2150.0   0.19415   0.00440
   2160.0   0.19454   0.00071
   2170.0   0.19515   0.00179
   2180.0   0.19551   0.00352
   2190.0   0.19585   0.00250
   2200.0   0.19636   0.00295
   2210.0   0.19656   0.00019
   2220.0   0.19686   0.00220
   2230.0   0.19692   0.00735
   2240.0   0.19723   0.00455
   2250.0   0.19725   0.00518
   2260.0   0.19736   0.00289
   2270.0   0.19716   0.00305
   2280.0   0.19728   0.00156
   2290.0   0.19718   0.00244
   2300.0   0.19755   0.00278
   2310.0   0.19783   0.00246
   2320.0   0.19814   0.00210
   2330.0   0.19829   0.00404
   2340.0   0.19844   0.00313
   2350.0   0.19842   0.00096
   2360.0   0.19867   0.00415
   2370.0   0.19849   0.00587
   2380.0   0.19865   0.00206
   2390.0   0.19863   0.00494
   2400.0   0.19894   0.00094
   2410.0   0.19886   0.00350
   2420.0   0.19916   0.00202
   2430.0   0.19936   0.00425
   2440.0   0.19956   0.00607
   2450.0   0.19893   0.00316
   2460.0   0.19903   0.00440
   2470.0   0.19964   0.00402
   2480.0   0.19928   0.00431
   2490.0   0.19952   0.00491
   2500.0   0.20030   0.00414
   2510.0   0.20048   0.00208
   2520.0   0.19985   0.00429
   2530.0   0.20099   0.00711
   2540.0   0.20151   0.00307
   2550.0   0.20177   0.00466



 C1TB68      .ASC                        

 TB-TJM-068                                                              
 Burnwell (Ungrouped) <150 um                                            
 Smoothed (890-2550 nm)                                                  
 * User: THB                                                             
 * Research Type: Cosmochemistry, Active Missions, Asteroid-Meteorite,   
 * NASA PI/CoI or Sponsor: TJM                                           
 * BVC: Visitor                                                          
 * Public Release Date: 11/02/2004                                       
 * Run Mode: All Samples at Each Wavelength                              
 * Stage Type: Automatic                                                 
 * Spinning: Yes                                                         
 * Aperture Size: 7.0 mm                                                 
 * Scrambler: Out                                                        
 * Depolarizer: Out                                                      
 RATIOS ADJUSTED USING NBS HALON CALIBRATION TABLE                       

 Source Ang: 30.00   Detect Ang:  0.00  Volt: 0.777
 Date:  6-NOV-01   Time: 15:17:26
