       224
    320.00   .042642   .005219
    330.00   .044183   .004517
    340.00   .045625   .004553
    350.00   .047455   .003629
    360.00   .049954   .001326
    370.00   .052349   .001020
    380.00   .055110   .000875
    390.00   .057460   .000783
    400.00   .059896   .002468
    410.00   .062127   .001841
    420.00   .064117   .001387
    430.00   .066115   .001487
    440.00   .068162   .001414
    450.00   .069856   .001264
    460.00   .071011   .001137
    470.00   .072412   .001074
    480.00   .073685   .000961
    490.00   .075206   .000930
    500.00   .076892   .000906
    510.00   .078439   .000841
    520.00   .080420   .000889
    530.00   .081550   .000862
    540.00   .082764   .000877
    550.00   .083843   .000910
    560.00   .084792   .000867
    570.00   .085595   .000921
    580.00   .086471   .000897
    590.00   .087260   .000873
    600.00   .087657   .000863
    610.00   .088181   .000992
    620.00   .088658   .000923
    630.00   .088787   .000971
    640.00   .089131   .000973
    650.00   .089598   .001052
    660.00   .089816   .001096
    670.00   .090090   .001163
    680.00   .090136   .001223
    690.00   .090543   .001175
    700.00   .090968   .001221
    710.00   .090972   .001300
    720.00   .091086   .001449
    730.00   .091265   .001511
    740.00   .091328   .001654
    750.00   .091585   .001729
    760.00   .091653   .002009
    770.00   .091681   .002275
    780.00   .091703   .002488
    790.00   .091813   .002789
    800.00   .091983   .003468
    810.00   .091890   .003514
    820.00   .091826   .004084
    830.00   .091671   .006272
    840.00   .092100   .006219
    850.00   .092069   .005541
    860.00   .092206   .005351
    870.00   .092085   .005447
    880.00   .092096   .004663
    890.00   .092135   .004086
    900.00   .092194   .003593
    910.00   .092347   .003208
    920.00   .092515   .002921
    930.00   .092569   .002636
    940.00   .092762   .002360
    950.00   .092933   .002092
    960.00   .093088   .001793
    970.00   .093298   .001673
    980.00   .093449   .001484
    990.00   .093641   .001351
   1000.00   .093719   .001260
   1010.00   .093912   .001283
   1020.00   .094082   .001310
   1030.00   .094223   .001339
   1040.00   .094381   .001372
   1050.00   .094453   .001381
   1060.00   .094629   .001333
   1070.00   .094911   .001227
   1080.00   .094851   .001205
   1090.00   .095179   .001153
   1100.00   .095126   .001112
   1110.00   .095415   .001049
   1120.00   .095478   .001049
   1130.00   .095509   .000958
   1140.00   .095811   .000900
   1150.00   .095920   .000938
   1160.00   .095777   .000857
   1170.00   .096110   .000880
   1180.00   .096143   .000854
   1190.00   .096218   .000772
   1200.00   .096303   .000771
   1210.00   .096388   .000775
   1220.00   .096412   .000712
   1230.00   .096560   .000734
   1240.00   .096560   .000755
   1250.00   .096724   .000745
   1260.00   .096679   .000663
   1270.00   .096839   .000697
   1280.00   .096830   .000755
   1290.00   .096895   .000735
   1300.00   .096862   .000746
   1310.00   .096951   .000716
   1320.00   .097060   .000708
   1330.00   .097197   .000649
   1340.00   .097249   .000750
   1350.00   .097311   .000826
   1360.00   .097264   .000731
   1370.00   .097347   .000651
   1380.00   .097357   .000777
   1390.00   .097508   .000765
   1400.00   .097470   .000773
   1410.00   .097445   .000982
   1420.00   .097535   .000966
   1430.00   .097656   .000946
   1440.00   .097632   .000931
   1450.00   .097767   .000914
   1460.00   .097887   .000842
   1470.00   .097872   .000905
   1480.00   .097976   .000862
   1490.00   .097986   .000952
   1500.00   .098101   .000931
   1510.00   .098094   .000996
   1520.00   .098181   .000988
   1530.00   .098183   .000972
   1540.00   .098311   .000982
   1550.00   .098313   .000959
   1560.00   .098419   .001010
   1570.00   .098428   .000960
   1580.00   .098593   .000955
   1590.00   .098527   .000958
   1600.00   .098680   .000936
   1610.00   .098773   .001002
   1620.00   .098899   .000966
   1630.00   .098867   .001007
   1640.00   .098947   .001011
   1650.00   .099036   .001020
   1660.00   .099108   .001030
   1670.00   .099211   .001037
   1680.00   .099331   .001059
   1690.00   .099476   .001055
   1700.00   .099567   .001123
   1710.00   .099529   .001076
   1720.00   .099523   .001128
   1730.00   .099485   .001065
   1740.00   .099291   .001099
   1750.00   .099253   .001046
   1760.00   .099187   .001076
   1770.00   .099396   .001036
   1780.00   .099311   .001075
   1790.00   .099350   .001039
   1800.00   .099313   .001047
   1810.00   .099144   .000973
   1820.00   .099229   .001082
   1830.00   .099240   .001051
   1840.00   .099369   .001096
   1850.00   .099210   .001031
   1860.00   .099292   .001020
   1870.00   .098974   .001093
   1880.00   .099215   .000976
   1890.00   .098896   .001059
   1900.00   .098591   .001106
   1910.00   .098538   .001066
   1920.00   .098545   .001118
   1930.00   .098444   .001027
   1940.00   .098491   .001003
   1950.00   .098437   .000987
   1960.00   .098407   .001031
   1970.00   .098438   .001117
   1980.00   .098766   .001024
   1990.00   .098754   .001015
   2000.00   .098886   .000995
   2010.00   .098869   .000942
   2020.00   .098852   .000975
   2030.00   .099198   .000923
   2040.00   .099192   .000979
   2050.00   .099300   .000939
   2060.00   .099249   .001001
   2070.00   .099068   .000969
   2080.00   .099157   .001008
   2090.00   .099031   .001065
   2100.00   .099002   .001039
   2110.00   .099127   .000822
   2120.00   .099296   .000917
   2130.00   .099277   .000834
   2140.00   .099224   .000861
   2150.00   .099413   .000913
   2160.00   .099384   .000901
   2170.00   .099177   .000868
   2180.00   .099308   .000920
   2190.00   .099412   .000993
   2200.00   .099540   .000915
   2210.00   .099399   .000987
   2220.00   .099492   .000996
   2230.00   .099383   .001002
   2240.00   .099353   .000920
   2250.00   .099340   .001009
   2260.00   .099450   .001015
   2270.00   .099342   .001093
   2280.00   .099371   .001124
   2290.00   .099529   .001148
   2300.00   .099341   .001056
   2310.00   .099543   .001040
   2320.00   .099525   .001046
   2330.00   .099472   .000968
   2340.00   .099490   .001110
   2350.00   .099436   .001041
   2360.00   .099457   .000955
   2370.00   .099414   .001022
   2380.00   .099296   .001002
   2390.00   .099263   .001061
   2400.00   .099344   .001091
   2410.00   .099292   .001105
   2420.00   .099385   .001008
   2430.00   .099295   .001093
   2440.00   .099304   .001099
   2450.00   .099227   .001076
   2460.00   .099227   .001115
   2470.00   .099036   .001189
   2480.00   .099229   .001248
   2490.00   .098998   .001180
   2500.00   .099079   .001124
   2510.00   .098899   .001041
   2520.00   .098895   .001040
   2530.00   .098575   .000979
   2540.00   .098712   .001021
   2550.00   .098633   .001079



 C1TB175.ASC             

 TB-MDD-175
 LAR 06252 (EH3) <125 um
 No depolarizer was used over the wavelength ranges of 320-400 & 1800-2550 nm
 Albedo adjusted to the visible range
 
 Source Ang:  30.00, Detect Ang:    .00, Volt:  .777
 Date: 05-DEC-19, Time: 14:16:13
 
 RATIOS ADJUSTED USING RELAB SPECTRALON CALIBRATION TABLE
